#Distance(A)    Macroscopic-Average    Planar-Average
  0.0000             0.00000             0.00019
  0.0626            -0.00000             0.00020
  0.1253            -0.00001             0.00021
  0.1879            -0.00001             0.00022
  0.2506            -0.00002             0.00022
  0.3132            -0.00002             0.00022
  0.3758            -0.00003             0.00023
  0.4385            -0.00003             0.00023
  0.5011            -0.00004             0.00024
  0.5637            -0.00005             0.00025
  0.6264            -0.00005             0.00026
  0.6890            -0.00006             0.00026
  0.7517            -0.00007             0.00026
  0.8143            -0.00009             0.00026
  0.8769            -0.00010             0.00027
  0.9396            -0.00012             0.00027
  1.0022            -0.00013             0.00028
  1.0648            -0.00015             0.00028
  1.1275            -0.00017             0.00029
  1.1901            -0.00019             0.00029
  1.2528            -0.00021             0.00029
  1.3154            -0.00024             0.00028
  1.3780            -0.00026             0.00029
  1.4407            -0.00029             0.00029
  1.5033            -0.00032             0.00029
  1.5659            -0.00034             0.00030
  1.6286            -0.00037             0.00030
  1.6912            -0.00040             0.00030
  1.7539            -0.00042             0.00029
  1.8165            -0.00045             0.00029
  1.8791            -0.00047             0.00029
  1.9418            -0.00048             0.00029
  2.0044            -0.00050             0.00029
  2.0670            -0.00050             0.00030
  2.1297            -0.00051             0.00030
  2.1923            -0.00051             0.00029
  2.2550            -0.00052             0.00029
  2.3176            -0.00052             0.00029
  2.3802            -0.00052             0.00028
  2.4429            -0.00053             0.00028
  2.5055            -0.00054             0.00028
  2.5682            -0.00055             0.00029
  2.6308            -0.00056             0.00029
  2.6934            -0.00056             0.00028
  2.7561            -0.00057             0.00028
  2.8187            -0.00056             0.00027
  2.8813            -0.00056             0.00027
  2.9440            -0.00055             0.00027
  3.0066            -0.00054             0.00027
  3.0693            -0.00053             0.00027
  3.1319            -0.00052             0.00027
  3.1945            -0.00051             0.00027
  3.2572            -0.00050             0.00026
  3.3198            -0.00050             0.00026
  3.3824            -0.00049             0.00026
  3.4451            -0.00049             0.00026
  3.5077            -0.00049             0.00026
  3.5704            -0.00049             0.00026
  3.6330            -0.00050             0.00026
  3.6956            -0.00050             0.00026
  3.7583            -0.00051             0.00025
  3.8209            -0.00051             0.00025
  3.8835            -0.00051             0.00024
  3.9462            -0.00052             0.00024
  4.0088            -0.00052             0.00024
  4.0715            -0.00052             0.00024
  4.1341            -0.00052             0.00024
  4.1967            -0.00052             0.00024
  4.2594            -0.00052             0.00024
  4.3220            -0.00052             0.00023
  4.3846            -0.00052             0.00023
  4.4473            -0.00052             0.00022
  4.5099            -0.00052             0.00022
  4.5726            -0.00052             0.00022
  4.6352            -0.00052             0.00022
  4.6978            -0.00052             0.00021
  4.7605            -0.00051             0.00020
  4.8231            -0.00051             0.00019
  4.8858            -0.00050             0.00018
  4.9484            -0.00049             0.00017
  5.0110            -0.00048             0.00016
  5.0737            -0.00047             0.00015
  5.1363            -0.00046             0.00014
  5.1989            -0.00045             0.00012
  5.2616            -0.00044             0.00009
  5.3242            -0.00043             0.00006
  5.3869            -0.00043             0.00003
  5.4495            -0.00042             0.00000
  5.5121            -0.00042            -0.00003
  5.5748            -0.00043            -0.00007
  5.6374            -0.00043            -0.00011
  5.7000            -0.00044            -0.00017
  5.7627            -0.00045            -0.00023
  5.8253            -0.00046            -0.00030
  5.8880            -0.00047            -0.00037
  5.9506            -0.00048            -0.00045
  6.0132            -0.00049            -0.00054
  6.0759            -0.00050            -0.00064
  6.1385            -0.00051            -0.00075
  6.2011            -0.00052            -0.00087
  6.2638            -0.00052            -0.00101
  6.3264            -0.00053            -0.00117
  6.3891            -0.00053            -0.00134
  6.4517            -0.00054            -0.00152
  6.5143            -0.00055            -0.00172
  6.5770            -0.00055            -0.00193
  6.6396            -0.00056            -0.00216
  6.7022            -0.00056            -0.00241
  6.7649            -0.00055            -0.00269
  6.8275            -0.00054            -0.00299
  6.8902            -0.00053            -0.00329
  6.9528            -0.00052            -0.00361
  7.0154            -0.00051            -0.00392
  7.0781            -0.00050            -0.00423
  7.1407            -0.00049            -0.00453
  7.2033            -0.00048            -0.00482
  7.2660            -0.00048            -0.00509
  7.3286            -0.00048            -0.00534
  7.3913            -0.00048            -0.00554
  7.4539            -0.00049            -0.00567
  7.5165            -0.00049            -0.00573
  7.5792            -0.00050            -0.00568
  7.6418            -0.00051            -0.00551
  7.7045            -0.00053            -0.00522
  7.7671            -0.00054            -0.00480
  7.8297            -0.00055            -0.00425
  7.8924            -0.00055            -0.00359
  7.9550            -0.00056            -0.00284
  8.0176            -0.00057            -0.00208
  8.0803            -0.00057            -0.00143
  8.1429            -0.00057            -0.00101
  8.2056            -0.00057            -0.00090
  8.2682            -0.00057            -0.00108
  8.3308            -0.00057            -0.00146
  8.3935            -0.00057            -0.00189
  8.4561            -0.00058            -0.00218
  8.5187            -0.00058            -0.00221
  8.5814            -0.00058            -0.00194
  8.6440            -0.00059            -0.00139
  8.7067            -0.00059            -0.00069
  8.7693            -0.00059             0.00005
  8.8319            -0.00059             0.00071
  8.8946            -0.00058             0.00122
  8.9572            -0.00057             0.00155
  9.0198            -0.00056             0.00167
  9.0825            -0.00056             0.00162
  9.1451            -0.00055             0.00143
  9.2078            -0.00054             0.00114
  9.2704            -0.00053             0.00081
  9.3330            -0.00053             0.00047
  9.3957            -0.00053             0.00013
  9.4583            -0.00053            -0.00020
  9.5209            -0.00053            -0.00051
  9.5836            -0.00054            -0.00078
  9.6462            -0.00055            -0.00099
  9.7089            -0.00056            -0.00111
  9.7715            -0.00057            -0.00109
  9.8341            -0.00059            -0.00095
  9.8968            -0.00060            -0.00070
  9.9594            -0.00062            -0.00039
 10.0221            -0.00063            -0.00010
 10.0847            -0.00064             0.00009
 10.1473            -0.00064             0.00013
 10.2100            -0.00065             0.00002
 10.2726            -0.00066            -0.00017
 10.3352            -0.00066            -0.00036
 10.3979            -0.00067            -0.00046
 10.4605            -0.00067            -0.00041
 10.5232            -0.00068            -0.00020
 10.5858            -0.00067             0.00013
 10.6484            -0.00067             0.00052
 10.7111            -0.00066             0.00090
 10.7737            -0.00065             0.00123
 10.8363            -0.00064             0.00150
 10.8990            -0.00063             0.00172
 10.9616            -0.00062             0.00190
 11.0243            -0.00060             0.00202
 11.0869            -0.00059             0.00207
 11.1495            -0.00059             0.00202
 11.2122            -0.00058             0.00185
 11.2748            -0.00058             0.00156
 11.3374            -0.00058             0.00116
 11.4001            -0.00058             0.00067
 11.4627            -0.00059             0.00014
 11.5254            -0.00060            -0.00039
 11.5880            -0.00060            -0.00090
 11.6506            -0.00061            -0.00136
 11.7133            -0.00062            -0.00172
 11.7759            -0.00063            -0.00197
 11.8385            -0.00063            -0.00207
 11.9012            -0.00063            -0.00201
 11.9638            -0.00064            -0.00179
 12.0265            -0.00063            -0.00148
 12.0891            -0.00063            -0.00117
 12.1517            -0.00063            -0.00095
 12.2144            -0.00062            -0.00087
 12.2770            -0.00062            -0.00092
 12.3397            -0.00061            -0.00104
 12.4023            -0.00061            -0.00111
 12.4649            -0.00060            -0.00103
 12.5276            -0.00060            -0.00074
 12.5902            -0.00059            -0.00023
 12.6528            -0.00058             0.00043
 12.7155            -0.00056             0.00114
 12.7781            -0.00054             0.00178
 12.8408            -0.00052             0.00227
 12.9034            -0.00050             0.00254
 12.9660            -0.00047             0.00257
 13.0287            -0.00044             0.00238
 13.0913            -0.00040             0.00200
 13.1539            -0.00037             0.00150
 13.2166            -0.00034             0.00092
 13.2792            -0.00031             0.00032
 13.3419            -0.00027            -0.00024
 13.4045            -0.00024            -0.00075
 13.4671            -0.00022            -0.00116
 13.5298            -0.00019            -0.00147
 13.5924            -0.00017            -0.00168
 13.6550            -0.00015            -0.00177
 13.7177            -0.00013            -0.00174
 13.7803            -0.00012            -0.00160
 13.8430            -0.00011            -0.00134
 13.9056            -0.00010            -0.00100
 13.9682            -0.00009            -0.00061
 14.0309            -0.00009            -0.00022
 14.0935            -0.00009             0.00009
 14.1561            -0.00009             0.00026
 14.2188            -0.00008             0.00027
 14.2814            -0.00008             0.00013
 14.3441            -0.00008            -0.00009
 14.4067            -0.00007            -0.00033
 14.4693            -0.00006            -0.00048
 14.5320            -0.00005            -0.00050
 14.5946            -0.00004            -0.00036
 14.6573            -0.00003            -0.00006
 14.7199            -0.00001             0.00036
 14.7825            -0.00000             0.00082
 14.8452             0.00000             0.00128
 14.9078             0.00001             0.00166
 14.9704             0.00001             0.00192
 15.0331             0.00001             0.00204
 15.0957             0.00001             0.00200
 15.1584             0.00001             0.00183
 15.2210             0.00000             0.00152
 15.2836             0.00000             0.00112
 15.3463            -0.00000             0.00062
 15.4089            -0.00001             0.00007
 15.4715            -0.00001            -0.00051
 15.5342            -0.00002            -0.00109
 15.5968            -0.00002            -0.00163
 15.6595            -0.00002            -0.00209
 15.7221            -0.00002            -0.00242
 15.7847            -0.00002            -0.00256
 15.8474            -0.00002            -0.00252
 15.9100            -0.00002            -0.00230
 15.9726            -0.00002            -0.00196
 16.0353            -0.00002            -0.00159
 16.0979            -0.00002            -0.00127
 16.1606            -0.00002            -0.00105
 16.2232            -0.00002            -0.00093
 16.2858            -0.00002            -0.00087
 16.3485            -0.00002            -0.00078
 16.4111            -0.00002            -0.00057
 16.4737            -0.00002            -0.00021
 16.5364            -0.00002             0.00030
 16.5990            -0.00002             0.00090
 16.6617            -0.00002             0.00152
 16.7243            -0.00003             0.00208
 16.7869            -0.00003             0.00249
 16.8496            -0.00003             0.00271
 16.9122            -0.00003             0.00271
 16.9749            -0.00003             0.00250
 17.0375            -0.00003             0.00212
 17.1001            -0.00003             0.00161
 17.1628            -0.00004             0.00104
 17.2254            -0.00004             0.00045
 17.2880            -0.00005            -0.00011
 17.3507            -0.00005            -0.00061
 17.4133            -0.00006            -0.00102
 17.4760            -0.00006            -0.00134
 17.5386            -0.00007            -0.00156
 17.6012            -0.00007            -0.00167
 17.6639            -0.00007            -0.00167
 17.7265            -0.00007            -0.00156
 17.7891            -0.00007            -0.00133
 17.8518            -0.00007            -0.00102
 17.9144            -0.00007            -0.00066
 17.9771            -0.00007            -0.00032
 18.0397            -0.00006            -0.00005
 18.1023            -0.00006             0.00009
 18.1650            -0.00006             0.00008
 18.2276            -0.00006            -0.00006
 18.2902            -0.00006            -0.00027
 18.3529            -0.00005            -0.00047
 18.4155            -0.00005            -0.00058
 18.4782            -0.00004            -0.00055
 18.5408            -0.00004            -0.00035
 18.6034            -0.00003            -0.00002
 18.6661            -0.00003             0.00041
 18.7287            -0.00002             0.00087
 18.7913            -0.00002             0.00130
 18.8540            -0.00003             0.00165
 18.9166            -0.00003             0.00187
 18.9793            -0.00004             0.00197
 19.0419            -0.00004             0.00193
 19.1045            -0.00005             0.00176
 19.1672            -0.00005             0.00149
 19.2298            -0.00006             0.00112
 19.2924            -0.00006             0.00069
 19.3551            -0.00006             0.00020
 19.4177            -0.00006            -0.00032
 19.4804            -0.00006            -0.00083
 19.5430            -0.00006            -0.00130
 19.6056            -0.00006            -0.00170
 19.6683            -0.00005            -0.00199
 19.7309            -0.00005            -0.00213
 19.7936            -0.00005            -0.00212
 19.8562            -0.00004            -0.00195
 19.9188            -0.00004            -0.00169
 19.9815            -0.00003            -0.00140
 20.0441            -0.00003            -0.00114
 20.1067            -0.00003            -0.00096
 20.1694            -0.00003            -0.00086
 20.2320            -0.00003            -0.00081
 20.2947            -0.00004            -0.00075
 20.3573            -0.00004            -0.00061
 20.4199            -0.00004            -0.00034
 20.4826            -0.00003             0.00005
 20.5452            -0.00003             0.00053
 20.6078            -0.00003             0.00105
 20.6705            -0.00002             0.00153
 20.7331            -0.00002             0.00192
 20.7958            -0.00002             0.00216
 20.8584            -0.00002             0.00221
 20.9210            -0.00002             0.00209
 20.9837            -0.00002             0.00181
 21.0463            -0.00002             0.00141
 21.1089            -0.00003             0.00094
 21.1716            -0.00003             0.00046
 21.2342            -0.00004            -0.00000
 21.2969            -0.00004            -0.00042
 21.3595            -0.00005            -0.00077
 21.4221            -0.00005            -0.00105
 21.4848            -0.00006            -0.00124
 21.5474            -0.00006            -0.00135
 21.6100            -0.00006            -0.00137
 21.6727            -0.00005            -0.00128
 21.7353            -0.00005            -0.00110
 21.7980            -0.00004            -0.00084
 21.8606            -0.00004            -0.00055
 21.9232            -0.00003            -0.00026
 21.9859            -0.00003            -0.00004
 22.0485            -0.00002             0.00007
 22.1112            -0.00002             0.00006
 22.1738            -0.00001            -0.00005
 22.2364            -0.00001            -0.00023
 22.2991            -0.00001            -0.00039
 22.3617            -0.00001            -0.00048
 22.4243            -0.00000            -0.00044
 22.4870            -0.00000            -0.00028
 22.5496             0.00000            -0.00000
 22.6123             0.00000             0.00035
 22.6749             0.00000             0.00073
 22.7375            -0.00000             0.00109
 22.8002            -0.00001             0.00137
 22.8628            -0.00001             0.00156
 22.9254            -0.00002             0.00164
 22.9881            -0.00003             0.00160
 23.0507            -0.00003             0.00147
 23.1134            -0.00004             0.00124
 23.1760            -0.00005             0.00093
 23.2386            -0.00005             0.00056
 23.3013            -0.00005             0.00014
 23.3639            -0.00005            -0.00029
 23.4265            -0.00005            -0.00073
 23.4892            -0.00005            -0.00113
 23.5518            -0.00005            -0.00147
 23.6145            -0.00004            -0.00173
 23.6771            -0.00004            -0.00187
 23.7397            -0.00003            -0.00188
 23.8024            -0.00003            -0.00176
 23.8650            -0.00002            -0.00154
 23.9276            -0.00002            -0.00127
 23.9903            -0.00002            -0.00101
 24.0529            -0.00002            -0.00080
 24.1156            -0.00002            -0.00066
 24.1782            -0.00002            -0.00057
 24.2408            -0.00002            -0.00050
 24.3035            -0.00002            -0.00040
 24.3661            -0.00002            -0.00022
 24.4288            -0.00001             0.00005
 24.4914            -0.00001             0.00041
 24.5540            -0.00001             0.00082
 24.6167            -0.00000             0.00122
 24.6793            -0.00000             0.00156
 24.7419            -0.00000             0.00179
 24.8046            -0.00000             0.00187
 24.8672            -0.00000             0.00179
 24.9299            -0.00001             0.00157
 24.9925            -0.00001             0.00124
 25.0551            -0.00001             0.00086
 25.1178            -0.00002             0.00046
 25.1804            -0.00002             0.00008
 25.2430            -0.00003            -0.00027
 25.3057            -0.00003            -0.00057
 25.3683            -0.00004            -0.00083
 25.4310            -0.00004            -0.00103
 25.4936            -0.00004            -0.00116
 25.5562            -0.00004            -0.00119
 25.6189            -0.00004            -0.00112
 25.6815            -0.00004            -0.00095
 25.7441            -0.00004            -0.00070
 25.8068            -0.00003            -0.00041
 25.8694            -0.00003            -0.00014
 25.9321            -0.00002             0.00006
 25.9947            -0.00002             0.00015
 26.0573            -0.00002             0.00013
 26.1200            -0.00002             0.00001
 26.1826            -0.00001            -0.00014
 26.2452            -0.00001            -0.00027
 26.3079            -0.00001            -0.00032
 26.3705            -0.00000            -0.00027
 26.4332            -0.00000            -0.00010
 26.4958             0.00000             0.00015
 26.5584             0.00001             0.00045
 26.6211             0.00001             0.00076
 26.6837             0.00001             0.00103
 26.7464             0.00001             0.00125
 26.8090             0.00000             0.00140
 26.8716            -0.00000             0.00146
 26.9343            -0.00000             0.00143
 26.9969            -0.00001             0.00132
 27.0595            -0.00001             0.00112
 27.1222            -0.00002             0.00085
 27.1848            -0.00002             0.00051
 27.2475            -0.00002             0.00013
 27.3101            -0.00003            -0.00027
 27.3727            -0.00003            -0.00066
 27.4354            -0.00003            -0.00102
 27.4980            -0.00003            -0.00133
 27.5606            -0.00002            -0.00156
 27.6233            -0.00002            -0.00168
 27.6859            -0.00002            -0.00169
 27.7486            -0.00001            -0.00158
 27.8112            -0.00001            -0.00137
 27.8738            -0.00001            -0.00110
 27.9365            -0.00001            -0.00083
 27.9991            -0.00000            -0.00061
 28.0617            -0.00000            -0.00047
 28.1244            -0.00000            -0.00041
 28.1870            -0.00001            -0.00038
 28.2497            -0.00001            -0.00034
 28.3123            -0.00000            -0.00023
 28.3749            -0.00000            -0.00004
 28.4376            -0.00000             0.00025
 28.5002             0.00000             0.00060
 28.5628             0.00000             0.00096
 28.6255             0.00001             0.00128
 28.6881             0.00001             0.00150
 28.7508             0.00001             0.00160
 28.8134             0.00001             0.00155
 28.8760             0.00001             0.00138
 28.9387             0.00000             0.00112
 29.0013             0.00000             0.00080
 29.0640            -0.00000             0.00046
 29.1266            -0.00001             0.00012
 29.1892            -0.00001            -0.00019
 29.2519            -0.00002            -0.00046
 29.3145            -0.00002            -0.00070
 29.3771            -0.00002            -0.00088
 29.4398            -0.00003            -0.00101
 29.5024            -0.00003            -0.00105
 29.5651            -0.00003            -0.00101
 29.6277            -0.00003            -0.00089
 29.6903            -0.00003            -0.00069
 29.7530            -0.00003            -0.00045
 29.8156            -0.00002            -0.00020
 29.8782            -0.00002             0.00001
 29.9409            -0.00001             0.00014
 30.0035            -0.00001             0.00018
 30.0662            -0.00001             0.00012
 30.1288            -0.00000             0.00001
 30.1914             0.00000            -0.00011
 30.2541             0.00000            -0.00019
 30.3167             0.00001            -0.00020
 30.3793             0.00001            -0.00011
 30.4420             0.00002             0.00007
 30.5046             0.00002             0.00031
 30.5673             0.00003             0.00059
 30.6299             0.00003             0.00086
 30.6925             0.00003             0.00108
 30.7552             0.00003             0.00124
 30.8178             0.00003             0.00132
 30.8804             0.00003             0.00131
 30.9431             0.00003             0.00122
 31.0057             0.00002             0.00104
 31.0684             0.00002             0.00080
 31.1310             0.00002             0.00050
 31.1936             0.00001             0.00015
 31.2563             0.00001            -0.00021
 31.3189             0.00001            -0.00058
 31.3815             0.00000            -0.00092
 31.4442             0.00000            -0.00122
 31.5068             0.00000            -0.00144
 31.5695             0.00000            -0.00156
 31.6321             0.00000            -0.00158
 31.6947             0.00000            -0.00149
 31.7574             0.00001            -0.00131
 31.8200             0.00001            -0.00108
 31.8827             0.00001            -0.00085
 31.9453             0.00001            -0.00066
 32.0079             0.00001            -0.00053
 32.0706             0.00001            -0.00045
 32.1332             0.00001            -0.00040
 32.1958             0.00001            -0.00033
 32.2585             0.00001            -0.00019
 32.3211             0.00001             0.00003
 32.3838             0.00001             0.00033
 32.4464             0.00001             0.00068
 32.5090             0.00001             0.00105
 32.5717             0.00002             0.00137
 32.6343             0.00002             0.00159
 32.6969             0.00002             0.00169
 32.7596             0.00002             0.00165
 32.8222             0.00002             0.00148
 32.8849             0.00002             0.00121
 32.9475             0.00002             0.00088
 33.0101             0.00001             0.00052
 33.0728             0.00001             0.00016
 33.1354             0.00001            -0.00016
 33.1980             0.00000            -0.00045
 33.2607            -0.00001            -0.00070
 33.3233            -0.00001            -0.00089
 33.3860            -0.00002            -0.00102
 33.4486            -0.00002            -0.00106
 33.5112            -0.00003            -0.00102
 33.5739            -0.00003            -0.00090
 33.6365            -0.00003            -0.00070
 33.6991            -0.00003            -0.00045
 33.7618            -0.00002            -0.00020
 33.8244            -0.00002             0.00001
 33.8871            -0.00001             0.00015
 33.9497            -0.00001             0.00019
 34.0123            -0.00000             0.00013
 34.0750            -0.00000             0.00001
 34.1376             0.00000            -0.00013
 34.2003             0.00001            -0.00023
 34.2629             0.00001            -0.00026
 34.3255             0.00002            -0.00019
 34.3882             0.00003            -0.00002
 34.4508             0.00003             0.00022
 34.5134             0.00004             0.00050
 34.5761             0.00005             0.00077
 34.6387             0.00005             0.00101
 34.7014             0.00006             0.00117
 34.7640             0.00006             0.00125
 34.8266             0.00006             0.00124
 34.8893             0.00006             0.00115
 34.9519             0.00005             0.00098
 35.0145             0.00005             0.00073
 35.0772             0.00005             0.00043
 35.1398             0.00004             0.00008
 35.2025             0.00003            -0.00030
 35.2651             0.00003            -0.00068
 35.3277             0.00002            -0.00104
 35.3904             0.00002            -0.00135
 35.4530             0.00002            -0.00156
 35.5156             0.00001            -0.00167
 35.5783             0.00001            -0.00165
 35.6409             0.00001            -0.00152
 35.7036             0.00001            -0.00128
 35.7662             0.00002            -0.00099
 35.8288             0.00002            -0.00069
 35.8915             0.00002            -0.00043
 35.9541             0.00002            -0.00024
 36.0167             0.00002            -0.00012
 36.0794             0.00002            -0.00004
 36.1420             0.00002             0.00004
 36.2047             0.00002             0.00017
 36.2673             0.00002             0.00037
 36.3299             0.00002             0.00067
 36.3926             0.00002             0.00102
 36.4552             0.00002             0.00138
 36.5179             0.00003             0.00169
 36.5805             0.00003             0.00190
 36.6431             0.00003             0.00198
 36.7058             0.00004             0.00191
 36.7684             0.00004             0.00170
 36.8310             0.00004             0.00138
 36.8937             0.00004             0.00099
 36.9563             0.00004             0.00056
 37.0190             0.00004             0.00013
 37.0816             0.00004            -0.00027
 37.1442             0.00003            -0.00063
 37.2069             0.00002            -0.00093
 37.2695             0.00002            -0.00116
 37.3321             0.00001            -0.00130
 37.3948             0.00000            -0.00135
 37.4574            -0.00000            -0.00131
 37.5201            -0.00001            -0.00116
 37.5827            -0.00001            -0.00094
 37.6453            -0.00001            -0.00066
 37.7080            -0.00001            -0.00036
 37.7706            -0.00001            -0.00009
 37.8332            -0.00000             0.00010
 37.8959             0.00000             0.00020
 37.9585             0.00001             0.00018
 38.0212             0.00001             0.00008
 38.0838             0.00001            -0.00006
 38.1464             0.00002            -0.00019
 38.2091             0.00002            -0.00024
 38.2717             0.00003            -0.00019
 38.3343             0.00004            -0.00003
 38.3970             0.00004             0.00023
 38.4596             0.00005             0.00054
 38.5223             0.00006             0.00085
 38.5849             0.00007             0.00112
 38.6475             0.00007             0.00130
 38.7102             0.00007             0.00139
 38.7728             0.00007             0.00137
 38.8355             0.00007             0.00125
 38.8981             0.00007             0.00103
 38.9607             0.00007             0.00073
 39.0234             0.00006             0.00037
 39.0860             0.00005            -0.00005
 39.1486             0.00005            -0.00050
 39.2113             0.00004            -0.00096
 39.2739             0.00003            -0.00139
 39.3366             0.00003            -0.00175
 39.3992             0.00002            -0.00200
 39.4618             0.00002            -0.00209
 39.5245             0.00002            -0.00201
 39.5871             0.00002            -0.00177
 39.6497             0.00002            -0.00140
 39.7124             0.00002            -0.00096
 39.7750             0.00002            -0.00051
 39.8377             0.00002            -0.00014
 39.9003             0.00002             0.00013
 39.9629             0.00002             0.00029
 40.0256             0.00002             0.00035
 40.0882             0.00002             0.00038
 40.1508             0.00002             0.00046
 40.2135             0.00002             0.00063
 40.2761             0.00002             0.00092
 40.3388             0.00002             0.00128
 40.4014             0.00003             0.00168
 40.4640             0.00003             0.00202
 40.5267             0.00004             0.00224
 40.5893             0.00004             0.00231
 40.6519             0.00005             0.00220
 40.7146             0.00005             0.00194
 40.7772             0.00005             0.00156
 40.8399             0.00006             0.00109
 40.9025             0.00006             0.00057
 40.9651             0.00005             0.00005
 41.0278             0.00005            -0.00045
 41.0904             0.00005            -0.00089
 41.1531             0.00004            -0.00125
 41.2157             0.00003            -0.00153
 41.2783             0.00002            -0.00169
 41.3410             0.00002            -0.00174
 41.4036             0.00001            -0.00166
 41.4662             0.00000            -0.00147
 41.5289            -0.00000            -0.00119
 41.5915            -0.00000            -0.00083
 41.6542             0.00000            -0.00046
 41.7168             0.00001            -0.00013
 41.7794             0.00001             0.00012
 41.8421             0.00001             0.00023
 41.9047             0.00002             0.00022
 41.9673             0.00002             0.00010
 42.0300             0.00002            -0.00007
 42.0926             0.00002            -0.00022
 42.1553             0.00003            -0.00029
 42.2179             0.00003            -0.00022
 42.2805             0.00003            -0.00000
 42.3432             0.00004             0.00032
 42.4058             0.00005             0.00071
 42.4684             0.00006             0.00109
 42.5311             0.00006             0.00142
 42.5937             0.00006             0.00166
 42.6564             0.00007             0.00176
 42.7190             0.00007             0.00174
 42.7816             0.00006             0.00160
 42.8443             0.00006             0.00134
 42.9069             0.00006             0.00099
 42.9695             0.00005             0.00055
 43.0322             0.00004             0.00005
 43.0948             0.00004            -0.00050
 43.1575             0.00003            -0.00105
 43.2201             0.00002            -0.00158
 43.2827             0.00002            -0.00202
 43.3454             0.00001            -0.00233
 43.4080             0.00001            -0.00245
 43.4706             0.00001            -0.00237
 43.5333             0.00001            -0.00209
 43.5959             0.00001            -0.00165
 43.6586             0.00001            -0.00113
 43.7212             0.00001            -0.00062
 43.7838             0.00001            -0.00019
 43.8465             0.00002             0.00010
 43.9091             0.00002             0.00023
 43.9718             0.00001             0.00026
 44.0344             0.00001             0.00027
 44.0970             0.00001             0.00033
 44.1597             0.00001             0.00053
 44.2223             0.00001             0.00087
 44.2849             0.00001             0.00132
 44.3476             0.00001             0.00181
 44.4102             0.00002             0.00224
 44.4729             0.00003             0.00253
 44.5355             0.00003             0.00262
 44.5981             0.00003             0.00252
 44.6608             0.00004             0.00223
 44.7234             0.00004             0.00179
 44.7860             0.00004             0.00126
 44.8487             0.00004             0.00068
 44.9113             0.00004             0.00008
 44.9740             0.00003            -0.00049
 45.0366             0.00003            -0.00100
 45.0992             0.00002            -0.00143
 45.1619             0.00001            -0.00176
 45.2245             0.00001            -0.00196
 45.2871             0.00000            -0.00202
 45.3498            -0.00000            -0.00195
 45.4124            -0.00001            -0.00173
 45.4751            -0.00001            -0.00141
 45.5377            -0.00000            -0.00100
 45.6003             0.00000            -0.00057
 45.6630             0.00001            -0.00017
 45.7256             0.00001             0.00013
 45.7882             0.00002             0.00028
 45.8509             0.00002             0.00028
 45.9135             0.00002             0.00014
 45.9762             0.00002            -0.00007
 46.0388             0.00002            -0.00026
 46.1014             0.00002            -0.00037
 46.1641             0.00002            -0.00032
 46.2267             0.00003            -0.00010
 46.2894             0.00003             0.00027
 46.3520             0.00004             0.00072
 46.4146             0.00004             0.00118
 46.4773             0.00005             0.00157
 46.5399             0.00005             0.00185
 46.6025             0.00005             0.00198
 46.6652             0.00004             0.00195
 46.7278             0.00004             0.00178
 46.7905             0.00004             0.00149
 46.8531             0.00003             0.00109
 46.9157             0.00002             0.00061
 46.9784             0.00002             0.00006
 47.0410             0.00001            -0.00053
 47.1036             0.00000            -0.00115
 47.1663            -0.00000            -0.00173
 47.2289            -0.00000            -0.00222
 47.2916            -0.00001            -0.00256
 47.3542            -0.00001            -0.00269
 47.4168            -0.00001            -0.00257
 47.4795            -0.00001            -0.00224
 47.5421            -0.00000            -0.00173
 47.6047            -0.00000            -0.00114
 47.6674             0.00000            -0.00057
 47.7300             0.00000            -0.00012
 47.7927             0.00000             0.00016
 47.8553             0.00000             0.00027
 47.9179             0.00000             0.00026
 47.9806             0.00000             0.00023
 48.0432            -0.00000             0.00028
 48.1058            -0.00000             0.00048
 48.1685            -0.00000             0.00086
 48.2311             0.00000             0.00136
 48.2938             0.00000             0.00190
 48.3564             0.00001             0.00237
 48.4190             0.00001             0.00268
 48.4817             0.00001             0.00278
 48.5443             0.00002             0.00266
 48.6070             0.00002             0.00235
 48.6696             0.00002             0.00188
 48.7322             0.00001             0.00130
 48.7949             0.00001             0.00067
 48.8575             0.00000             0.00003
 48.9201            -0.00000            -0.00059
 48.9828            -0.00001            -0.00115
 49.0454            -0.00001            -0.00162
 49.1081            -0.00002            -0.00198
 49.1707            -0.00003            -0.00220
 49.2333            -0.00003            -0.00227
 49.2960            -0.00003            -0.00218
 49.3586            -0.00003            -0.00195
 49.4212            -0.00003            -0.00160
 49.4839            -0.00002            -0.00116
 49.5465            -0.00002            -0.00069
 49.6092            -0.00001            -0.00025
 49.6718            -0.00000             0.00007
 49.7344             0.00001             0.00025
 49.7971             0.00001             0.00025
 49.8597             0.00001             0.00011
 49.9223             0.00001            -0.00011
 49.9850             0.00002            -0.00032
 50.0476             0.00002            -0.00043
 50.1103             0.00002            -0.00039
 50.1729             0.00002            -0.00016
 50.2355             0.00003             0.00022
 50.2982             0.00003             0.00068
 50.3608             0.00004             0.00116
 50.4234             0.00004             0.00156
 50.4861             0.00003             0.00184
 50.5487             0.00003             0.00196
 50.6114             0.00002             0.00191
 50.6740             0.00002             0.00172
 50.7366             0.00001             0.00141
 50.7993             0.00000             0.00100
 50.8619            -0.00000             0.00052
 50.9246            -0.00001            -0.00002
 50.9872            -0.00002            -0.00060
 51.0498            -0.00002            -0.00120
 51.1125            -0.00003            -0.00177
 51.1751            -0.00003            -0.00224
 51.2377            -0.00003            -0.00256
 51.3004            -0.00003            -0.00265
 51.3630            -0.00003            -0.00250
 51.4257            -0.00002            -0.00212
 51.4883            -0.00002            -0.00157
 51.5509            -0.00002            -0.00094
 51.6136            -0.00001            -0.00036
 51.6762            -0.00001             0.00010
 51.7388            -0.00001             0.00036
 51.8015            -0.00001             0.00044
 51.8641            -0.00001             0.00039
 51.9268            -0.00001             0.00031
 51.9894            -0.00001             0.00032
 52.0520            -0.00001             0.00049
 52.1147            -0.00001             0.00084
 52.1773            -0.00000             0.00132
 52.2399             0.00000             0.00185
 52.3026             0.00000             0.00230
 52.3652             0.00001             0.00260
 52.4279             0.00001             0.00268
 52.4905             0.00001             0.00255
 52.5531             0.00000             0.00223
 52.6158            -0.00000             0.00177
 52.6784            -0.00001             0.00121
 52.7410            -0.00001             0.00061
 52.8037            -0.00002            -0.00002
 52.8663            -0.00002            -0.00062
 52.9290            -0.00003            -0.00116
 52.9916            -0.00004            -0.00163
 53.0542            -0.00004            -0.00198
 53.1169            -0.00004            -0.00219
 53.1795            -0.00005            -0.00227
 53.2422            -0.00005            -0.00219
 53.3048            -0.00004            -0.00197
 53.3674            -0.00004            -0.00164
 53.4301            -0.00003            -0.00122
 53.4927            -0.00002            -0.00077
 53.5553            -0.00001            -0.00033
 53.6180            -0.00000             0.00001
 53.6806             0.00001             0.00022
 53.7433             0.00001             0.00027
 53.8059             0.00002             0.00017
 53.8685             0.00003            -0.00002
 53.9312             0.00003            -0.00022
 53.9938             0.00004            -0.00035
 54.0564             0.00004            -0.00033
 54.1191             0.00005            -0.00015
 54.1817             0.00005             0.00018
 54.2444             0.00005             0.00060
 54.3070             0.00005             0.00104
 54.3696             0.00005             0.00141
 54.4323             0.00005             0.00165
 54.4949             0.00004             0.00175
 54.5575             0.00003             0.00169
 54.6202             0.00002             0.00150
 54.6828             0.00001             0.00120
 54.7455             0.00000             0.00083
 54.8081            -0.00000             0.00039
 54.8707            -0.00001            -0.00010
 54.9334            -0.00002            -0.00062
 54.9960            -0.00002            -0.00115
 55.0586            -0.00003            -0.00165
 55.1213            -0.00003            -0.00205
 55.1839            -0.00003            -0.00231
 55.2466            -0.00003            -0.00236
 55.3092            -0.00003            -0.00220
 55.3718            -0.00002            -0.00183
 55.4345            -0.00002            -0.00131
 55.4971            -0.00002            -0.00073
 55.5597            -0.00001            -0.00018
 55.6224            -0.00001             0.00026
 55.6850            -0.00001             0.00053
 55.7477            -0.00000             0.00063
 55.8103             0.00000             0.00061
 55.8729             0.00000             0.00055
 55.9356             0.00001             0.00053
 55.9982             0.00001             0.00064
 56.0609             0.00001             0.00091
 56.1235             0.00002             0.00128
 56.1861             0.00002             0.00170
 56.2488             0.00002             0.00206
 56.3114             0.00002             0.00227
 56.3740             0.00002             0.00231
 56.4367             0.00002             0.00216
 56.4993             0.00002             0.00185
 56.5620             0.00001             0.00142
 56.6246             0.00000             0.00091
 56.6872            -0.00000             0.00037
 56.7499            -0.00001            -0.00018
 56.8125            -0.00002            -0.00071
 56.8751            -0.00002            -0.00120
 56.9378            -0.00003            -0.00161
 57.0004            -0.00003            -0.00193
 57.0631            -0.00003            -0.00212
 57.1257            -0.00003            -0.00219
 57.1883            -0.00003            -0.00212
 57.2510            -0.00002            -0.00191
 57.3136            -0.00002            -0.00159
 57.3762            -0.00001            -0.00118
 57.4389             0.00000            -0.00072
 57.5015             0.00001            -0.00027
 57.5642             0.00002             0.00011
 57.6268             0.00002             0.00038
 57.6894             0.00003             0.00049
 57.7521             0.00004             0.00045
 57.8147             0.00004             0.00029
 57.8773             0.00004             0.00009
 57.9400             0.00004            -0.00008
 58.0026             0.00004            -0.00014
 58.0653             0.00004            -0.00006
 58.1279             0.00004             0.00017
 58.1905             0.00005             0.00048
 58.2532             0.00005             0.00082
 58.3158             0.00005             0.00112
 58.3785             0.00006             0.00132
 58.4411             0.00007             0.00141
 58.5037             0.00008             0.00137
 58.5664             0.00010             0.00122
 58.6290             0.00012             0.00099
 58.6916             0.00015             0.00068
 58.7543             0.00018             0.00032
 58.8169             0.00021            -0.00009
 58.8796             0.00025            -0.00054
 58.9422             0.00028            -0.00101
 59.0048             0.00032            -0.00145
 59.0675             0.00036            -0.00181
 59.1301             0.00040            -0.00205
 59.1927             0.00043            -0.00210
 59.2554             0.00046            -0.00196
 59.3180             0.00049            -0.00163
 59.3807             0.00052            -0.00114
 59.4433             0.00054            -0.00055
 59.5059             0.00056             0.00005
 59.5686             0.00058             0.00059
 59.6312             0.00059             0.00101
 59.6938             0.00060             0.00126
 59.7565             0.00060             0.00136
 59.8191             0.00061             0.00133
 59.8818             0.00062             0.00127
 59.9444             0.00062             0.00124
 60.0070             0.00063             0.00130
 60.0697             0.00063             0.00144
 60.1323             0.00064             0.00164
 60.1949             0.00064             0.00182
 60.2576             0.00064             0.00192
 60.3202             0.00063             0.00188
 60.3829             0.00062             0.00171
 60.4455             0.00062             0.00142
 60.5081             0.00061             0.00105
 60.5708             0.00060             0.00061
 60.6334             0.00059             0.00014
 60.6961             0.00058            -0.00035
 60.7587             0.00057            -0.00083
 60.8213             0.00057            -0.00129
 60.8840             0.00057            -0.00169
 60.9466             0.00057            -0.00202
 61.0092             0.00057            -0.00225
 61.0719             0.00058            -0.00237
 61.1345             0.00059            -0.00235
 61.1972             0.00060            -0.00220
 61.2598             0.00061            -0.00191
 61.3224             0.00062            -0.00150
 61.3851             0.00063            -0.00101
 61.4477             0.00063            -0.00047
 61.5103             0.00063             0.00006
 61.5730             0.00063             0.00051
 61.6356             0.00063             0.00082
 61.6983             0.00062             0.00095
 61.7609             0.00062             0.00090
 61.8235             0.00061             0.00071
 61.8862             0.00060             0.00047
 61.9488             0.00060             0.00028
 62.0114             0.00059             0.00021
 62.0741             0.00059             0.00027
 62.1367             0.00058             0.00045
 62.1994             0.00057             0.00066
 62.2620             0.00055             0.00086
 62.3246             0.00054             0.00099
 62.3873             0.00053             0.00102
 62.4499             0.00051             0.00097
 62.5125             0.00050             0.00084
 62.5752             0.00049             0.00066
 62.6378             0.00048             0.00042
 62.7005             0.00048             0.00014
 62.7631             0.00048            -0.00017
 62.8257             0.00048            -0.00050
 62.8884             0.00048            -0.00084
 62.9510             0.00049            -0.00116
 63.0137             0.00050            -0.00143
 63.0763             0.00051            -0.00162
 63.1389             0.00052            -0.00169
 63.2016             0.00053            -0.00164
 63.2642             0.00054            -0.00145
 63.3268             0.00054            -0.00111
 63.3895             0.00055            -0.00063
 63.4521             0.00055            -0.00005
 63.5148             0.00055             0.00054
 63.5774             0.00055             0.00105
 63.6400             0.00054             0.00136
 63.7027             0.00054             0.00141
 63.7653             0.00054             0.00122
 63.8279             0.00053             0.00087
 63.8906             0.00053             0.00054
 63.9532             0.00053             0.00038
 64.0159             0.00053             0.00050
 64.0785             0.00053             0.00092
 64.1411             0.00053             0.00157
 64.2038             0.00053             0.00237
 64.2664             0.00052             0.00319
 64.3290             0.00052             0.00397
 64.3917             0.00051             0.00465
 64.4543             0.00050             0.00523
 64.5170             0.00049             0.00569
 64.5796             0.00049             0.00601
 64.6422             0.00048             0.00620
 64.7049             0.00048             0.00625
 64.7675             0.00047             0.00618
 64.8301             0.00047             0.00601
 64.8928             0.00048             0.00578
 64.9554             0.00048             0.00550
 65.0181             0.00049             0.00518
 65.0807             0.00050             0.00484
 65.1433             0.00051             0.00449
 65.2060             0.00052             0.00413
 65.2686             0.00053             0.00377
 65.3313             0.00054             0.00341
 65.3939             0.00055             0.00306
 65.4565             0.00055             0.00273
 65.5192             0.00055             0.00242
 65.5818             0.00055             0.00214
 65.6444             0.00054             0.00188
 65.7071             0.00054             0.00164
 65.7697             0.00053             0.00141
 65.8324             0.00052             0.00119
 65.8950             0.00052             0.00100
 65.9576             0.00051             0.00082
 66.0203             0.00051             0.00066
 66.0829             0.00050             0.00052
 66.1455             0.00049             0.00040
 66.2082             0.00048             0.00029
 66.2708             0.00048             0.00019
 66.3335             0.00047             0.00009
 66.3961             0.00046             0.00000
 66.4587             0.00045            -0.00007
 66.5214             0.00045            -0.00014
 66.5840             0.00045            -0.00019
 66.6466             0.00045            -0.00023
 66.7093             0.00045            -0.00027
 66.7719             0.00046            -0.00031
 66.8346             0.00046            -0.00034
 66.8972             0.00047            -0.00037
 66.9598             0.00049            -0.00040
 67.0225             0.00050            -0.00042
 67.0851             0.00051            -0.00043
 67.1477             0.00053            -0.00044
 67.2104             0.00054            -0.00044
 67.2730             0.00055            -0.00045
 67.3357             0.00056            -0.00046
 67.3983             0.00057            -0.00047
 67.4609             0.00057            -0.00047
 67.5236             0.00057            -0.00047
 67.5862             0.00057            -0.00047
 67.6488             0.00057            -0.00046
 67.7115             0.00056            -0.00046
 67.7741             0.00056            -0.00046
 67.8368             0.00056            -0.00045
 67.8994             0.00056            -0.00046
 67.9620             0.00056            -0.00045
 68.0247             0.00056            -0.00045
 68.0873             0.00056            -0.00044
 68.1500             0.00056            -0.00043
 68.2126             0.00056            -0.00042
 68.2752             0.00055            -0.00042
 68.3379             0.00055            -0.00042
 68.4005             0.00055            -0.00041
 68.4631             0.00054            -0.00041
 68.5258             0.00054            -0.00040
 68.5884             0.00054            -0.00039
 68.6511             0.00054            -0.00038
 68.7137             0.00054            -0.00037
 68.7763             0.00054            -0.00036
 68.8390             0.00054            -0.00036
 68.9016             0.00055            -0.00036
 68.9642             0.00056            -0.00035
 69.0269             0.00057            -0.00034
 69.0895             0.00058            -0.00033
 69.1522             0.00059            -0.00032
 69.2148             0.00060            -0.00031
 69.2774             0.00061            -0.00030
 69.3401             0.00061            -0.00029
 69.4027             0.00062            -0.00028
 69.4653             0.00062            -0.00028
 69.5280             0.00062            -0.00027
 69.5906             0.00061            -0.00025
 69.6533             0.00061            -0.00024
 69.7159             0.00060            -0.00023
 69.7785             0.00060            -0.00021
 69.8412             0.00059            -0.00021
 69.9038             0.00059            -0.00020
 69.9664             0.00059            -0.00019
 70.0291             0.00059            -0.00018
 70.0917             0.00059            -0.00017
 70.1544             0.00058            -0.00015
 70.2170             0.00057            -0.00014
 70.2796             0.00055            -0.00012
 70.3423             0.00053            -0.00011
 70.4049             0.00051            -0.00010
 70.4676             0.00048            -0.00010
 70.5302             0.00046            -0.00008
 70.5928             0.00043            -0.00007
 70.6555             0.00039            -0.00006
 70.7181             0.00036            -0.00004
 70.7807             0.00033            -0.00003
 70.8434             0.00030            -0.00002
 70.9060             0.00027            -0.00001
 70.9687             0.00024            -0.00000
 71.0313             0.00022             0.00001
 71.0939             0.00019             0.00002
 71.1566             0.00017             0.00004
 71.2192             0.00015             0.00005
 71.2818             0.00013             0.00006
 71.3445             0.00011             0.00007
 71.4071             0.00010             0.00008
 71.4698             0.00008             0.00009
 71.5324             0.00007             0.00010
 71.5950             0.00006             0.00011
 71.6577             0.00005             0.00012
 71.7203             0.00004             0.00013
 71.7829             0.00003             0.00014
 71.8456             0.00003             0.00015
 71.9082             0.00002             0.00016
 71.9709             0.00002             0.00016
 72.0335             0.00001             0.00017
 72.0961             0.00001             0.00018
