#Distance(A)    Macroscopic-Average    Planar-Average
  0.0000            -0.00001            -0.00001
  0.0626            -0.00001            -0.00001
  0.1252            -0.00001            -0.00001
  0.1878            -0.00001            -0.00001
  0.2504            -0.00001            -0.00001
  0.3130            -0.00001            -0.00001
  0.3756            -0.00001            -0.00001
  0.4382            -0.00001            -0.00001
  0.5009            -0.00001            -0.00001
  0.5635            -0.00000            -0.00000
  0.6261            -0.00000            -0.00000
  0.6887            -0.00000            -0.00000
  0.7513            -0.00000            -0.00000
  0.8139            -0.00000            -0.00000
  0.8765            -0.00000            -0.00000
  0.9391             0.00000             0.00000
  1.0017             0.00000             0.00000
  1.0643             0.00000             0.00000
  1.1269             0.00000             0.00000
  1.1895             0.00000             0.00000
  1.2521             0.00000             0.00000
  1.3147             0.00001             0.00001
  1.3773             0.00001             0.00001
  1.4399             0.00001             0.00001
  1.5026             0.00001             0.00001
  1.5652             0.00001             0.00001
  1.6278             0.00001             0.00001
  1.6904             0.00001             0.00001
  1.7530             0.00001             0.00001
  1.8156             0.00001             0.00001
  1.8782             0.00001             0.00001
  1.9408             0.00001             0.00001
  2.0034             0.00001             0.00002
  2.0660             0.00002             0.00002
  2.1286             0.00002             0.00002
  2.1912             0.00002             0.00002
  2.2538             0.00002             0.00002
  2.3164             0.00002             0.00002
  2.3790             0.00002             0.00002
  2.4416             0.00002             0.00002
  2.5043             0.00002             0.00002
  2.5669             0.00002             0.00002
  2.6295             0.00002             0.00002
  2.6921             0.00002             0.00002
  2.7547             0.00002             0.00002
  2.8173             0.00002             0.00002
  2.8799             0.00002             0.00003
  2.9425             0.00002             0.00003
  3.0051             0.00003             0.00003
  3.0677             0.00003             0.00003
  3.1303             0.00003             0.00003
  3.1929             0.00003             0.00003
  3.2555             0.00003             0.00003
  3.3181             0.00003             0.00003
  3.3807             0.00003             0.00003
  3.4433             0.00003             0.00003
  3.5060             0.00003             0.00003
  3.5686             0.00003             0.00003
  3.6312             0.00003             0.00003
  3.6938             0.00003             0.00003
  3.7564             0.00003             0.00003
  3.8190             0.00003             0.00003
  3.8816             0.00003             0.00003
  3.9442             0.00003             0.00003
  4.0068             0.00002             0.00003
  4.0694             0.00002             0.00003
  4.1320             0.00002             0.00003
  4.1946             0.00002             0.00003
  4.2572             0.00002             0.00003
  4.3198             0.00002             0.00003
  4.3824             0.00001             0.00003
  4.4451             0.00001             0.00003
  4.5077             0.00001             0.00002
  4.5703             0.00001             0.00002
  4.6329             0.00000             0.00002
  4.6955            -0.00000             0.00002
  4.7581            -0.00001             0.00001
  4.8207            -0.00002             0.00001
  4.8833            -0.00002             0.00001
  4.9459            -0.00003             0.00000
  5.0085            -0.00004            -0.00000
  5.0711            -0.00005            -0.00001
  5.1337            -0.00006            -0.00001
  5.1963            -0.00008            -0.00002
  5.2589            -0.00009            -0.00003
  5.3215            -0.00011            -0.00004
  5.3841            -0.00013            -0.00005
  5.4468            -0.00015            -0.00006
  5.5094            -0.00017            -0.00008
  5.5720            -0.00020            -0.00009
  5.6346            -0.00023            -0.00011
  5.6972            -0.00026            -0.00013
  5.7598            -0.00030            -0.00015
  5.8224            -0.00034            -0.00018
  5.8850            -0.00038            -0.00021
  5.9476            -0.00042            -0.00024
  6.0102            -0.00047            -0.00028
  6.0728            -0.00053            -0.00032
  6.1354            -0.00059            -0.00036
  6.1980            -0.00065            -0.00042
  6.2606            -0.00071            -0.00047
  6.3232            -0.00078            -0.00053
  6.3858            -0.00084            -0.00060
  6.4485            -0.00091            -0.00068
  6.5111            -0.00098            -0.00076
  6.5737            -0.00105            -0.00085
  6.6363            -0.00112            -0.00094
  6.6989            -0.00118            -0.00105
  6.7615            -0.00124            -0.00116
  6.8241            -0.00128            -0.00127
  6.8867            -0.00132            -0.00139
  6.9493            -0.00135            -0.00152
  7.0119            -0.00136            -0.00164
  7.0745            -0.00137            -0.00177
  7.1371            -0.00136            -0.00189
  7.1997            -0.00135            -0.00201
  7.2623            -0.00135            -0.00212
  7.3249            -0.00135            -0.00222
  7.3875            -0.00135            -0.00229
  7.4502            -0.00135            -0.00235
  7.5128            -0.00135            -0.00237
  7.5754            -0.00134            -0.00235
  7.6380            -0.00133            -0.00228
  7.7006            -0.00130            -0.00215
  7.7632            -0.00127            -0.00197
  7.8258            -0.00122            -0.00172
  7.8884            -0.00117            -0.00141
  7.9510            -0.00112            -0.00106
  8.0136            -0.00105            -0.00071
  8.0762            -0.00099            -0.00041
  8.1388            -0.00093            -0.00020
  8.2014            -0.00086            -0.00014
  8.2640            -0.00080            -0.00020
  8.3266            -0.00073            -0.00036
  8.3893            -0.00066            -0.00054
  8.4519            -0.00060            -0.00066
  8.5145            -0.00054            -0.00068
  8.5771            -0.00048            -0.00057
  8.6397            -0.00042            -0.00037
  8.7023            -0.00036            -0.00013
  8.7649            -0.00031             0.00011
  8.8275            -0.00026             0.00029
  8.8901            -0.00022             0.00042
  8.9527            -0.00018             0.00048
  9.0153            -0.00015             0.00048
  9.0779            -0.00013             0.00044
  9.1405            -0.00012             0.00037
  9.2031            -0.00011             0.00027
  9.2657            -0.00011             0.00017
  9.3283            -0.00011             0.00005
  9.3910            -0.00011            -0.00007
  9.4536            -0.00010            -0.00018
  9.5162            -0.00009            -0.00028
  9.5788            -0.00007            -0.00035
  9.6414            -0.00006            -0.00040
  9.7040            -0.00004            -0.00041
  9.7666            -0.00003            -0.00040
  9.8292            -0.00002            -0.00036
  9.8918            -0.00000            -0.00029
  9.9544             0.00001            -0.00020
 10.0170             0.00002            -0.00011
 10.0796             0.00003            -0.00004
 10.1422             0.00004            -0.00001
 10.2048             0.00005            -0.00003
 10.2674             0.00006            -0.00010
 10.3300             0.00007            -0.00019
 10.3927             0.00008            -0.00027
 10.4553             0.00009            -0.00031
 10.5179             0.00009            -0.00028
 10.5805             0.00009            -0.00019
 10.6431             0.00009            -0.00004
 10.7057             0.00009             0.00015
 10.7683             0.00008             0.00034
 10.8309             0.00008             0.00052
 10.8935             0.00007             0.00067
 10.9561             0.00006             0.00078
 11.0187             0.00006             0.00084
 11.0813             0.00005             0.00085
 11.1439             0.00005             0.00081
 11.2065             0.00004             0.00073
 11.2691             0.00004             0.00062
 11.3317             0.00004             0.00049
 11.3944             0.00004             0.00033
 11.4570             0.00004             0.00015
 11.5196             0.00004            -0.00003
 11.5822             0.00005            -0.00021
 11.6448             0.00006            -0.00037
 11.7074             0.00007            -0.00050
 11.7700             0.00009            -0.00059
 11.8326             0.00009            -0.00062
 11.8952             0.00010            -0.00060
 11.9578             0.00010            -0.00051
 12.0204             0.00009            -0.00040
 12.0830             0.00008            -0.00028
 12.1456             0.00006            -0.00019
 12.2082             0.00004            -0.00014
 12.2708             0.00001            -0.00014
 12.3335            -0.00001            -0.00018
 12.3961            -0.00004            -0.00021
 12.4587            -0.00007            -0.00021
 12.5213            -0.00009            -0.00014
 12.5839            -0.00011            -0.00001
 12.6465            -0.00012             0.00016
 12.7091            -0.00013             0.00034
 12.7717            -0.00013             0.00050
 12.8343            -0.00013             0.00061
 12.8969            -0.00012             0.00065
 12.9595            -0.00011             0.00063
 13.0221            -0.00010             0.00055
 13.0847            -0.00008             0.00042
 13.1473            -0.00007             0.00027
 13.2099            -0.00006             0.00009
 13.2725            -0.00006            -0.00008
 13.3352            -0.00005            -0.00024
 13.3978            -0.00005            -0.00038
 13.4604            -0.00005            -0.00050
 13.5230            -0.00004            -0.00059
 13.5856            -0.00004            -0.00064
 13.6482            -0.00004            -0.00066
 13.7108            -0.00004            -0.00064
 13.7734            -0.00003            -0.00059
 13.8360            -0.00003            -0.00049
 13.8986            -0.00003            -0.00037
 13.9612            -0.00003            -0.00022
 14.0238            -0.00002            -0.00008
 14.0864            -0.00002             0.00003
 14.1490            -0.00001             0.00010
 14.2116            -0.00000             0.00011
 14.2742             0.00001             0.00006
 14.3369             0.00002            -0.00002
 14.3995             0.00003            -0.00009
 14.4621             0.00004            -0.00013
 14.5247             0.00005            -0.00011
 14.5873             0.00005            -0.00004
 14.6499             0.00005             0.00009
 14.7125             0.00005             0.00025
 14.7751             0.00005             0.00041
 14.8377             0.00005             0.00056
 14.9003             0.00005             0.00068
 14.9629             0.00005             0.00074
 15.0255             0.00005             0.00076
 15.0881             0.00005             0.00073
 15.1507             0.00005             0.00066
 15.2133             0.00005             0.00056
 15.2759             0.00005             0.00043
 15.3386             0.00005             0.00027
 15.4012             0.00004             0.00010
 15.4638             0.00005            -0.00008
 15.5264             0.00005            -0.00026
 15.5890             0.00006            -0.00043
 15.6516             0.00007            -0.00056
 15.7142             0.00008            -0.00065
 15.7768             0.00009            -0.00067
 15.8394             0.00010            -0.00062
 15.9020             0.00010            -0.00050
 15.9646             0.00010            -0.00035
 16.0272             0.00009            -0.00018
 16.0898             0.00007            -0.00005
 16.1524             0.00005             0.00003
 16.2150             0.00003             0.00004
 16.2777             0.00000             0.00000
 16.3403            -0.00002            -0.00006
 16.4029            -0.00005            -0.00009
 16.4655            -0.00007            -0.00007
 16.5281            -0.00009             0.00002
 16.5907            -0.00010             0.00017
 16.6533            -0.00011             0.00033
 16.7159            -0.00011             0.00048
 16.7785            -0.00011             0.00059
 16.8411            -0.00010             0.00064
 16.9037            -0.00009             0.00061
 16.9663            -0.00008             0.00053
 17.0289            -0.00006             0.00041
 17.0915            -0.00006             0.00025
 17.1541            -0.00005             0.00008
 17.2167            -0.00005            -0.00010
 17.2794            -0.00005            -0.00026
 17.3420            -0.00005            -0.00041
 17.4046            -0.00006            -0.00053
 17.4672            -0.00006            -0.00063
 17.5298            -0.00006            -0.00068
 17.5924            -0.00005            -0.00070
 17.6550            -0.00005            -0.00068
 17.7176            -0.00005            -0.00063
 17.7802            -0.00005            -0.00053
 17.8428            -0.00005            -0.00040
 17.9054            -0.00005            -0.00025
 17.9680            -0.00004            -0.00010
 18.0306            -0.00004             0.00002
 18.0932            -0.00003             0.00009
 18.1558            -0.00002             0.00011
 18.2184            -0.00001             0.00007
 18.2811             0.00000             0.00000
 18.3437             0.00001            -0.00007
 18.4063             0.00002            -0.00012
 18.4689             0.00003            -0.00012
 18.5315             0.00004            -0.00005
 18.5941             0.00005             0.00006
 18.6567             0.00005             0.00021
 18.7193             0.00005             0.00037
 18.7819             0.00005             0.00052
 18.8445             0.00006             0.00063
 18.9071             0.00006             0.00070
 18.9697             0.00006             0.00073
 19.0323             0.00006             0.00071
 19.0949             0.00006             0.00066
 19.1575             0.00006             0.00057
 19.2201             0.00005             0.00045
 19.2828             0.00005             0.00030
 19.3454             0.00005             0.00014
 19.4080             0.00005            -0.00003
 19.4706             0.00005            -0.00020
 19.5332             0.00006            -0.00036
 19.5958             0.00007            -0.00050
 19.6584             0.00008            -0.00059
 19.7210             0.00009            -0.00062
 19.7836             0.00010            -0.00059
 19.8462             0.00010            -0.00050
 19.9088             0.00010            -0.00036
 19.9714             0.00009            -0.00020
 20.0340             0.00008            -0.00007
 20.0966             0.00006             0.00001
 20.1592             0.00004             0.00003
 20.2218             0.00001            -0.00000
 20.2845            -0.00001            -0.00006
 20.3471            -0.00004            -0.00009
 20.4097            -0.00006            -0.00008
 20.4723            -0.00008             0.00000
 20.5349            -0.00010             0.00014
 20.5975            -0.00011             0.00029
 20.6601            -0.00011             0.00045
 20.7227            -0.00011             0.00056
 20.7853            -0.00010             0.00061
 20.8479            -0.00009             0.00061
 20.9105            -0.00008             0.00054
 20.9731            -0.00007             0.00042
 21.0357            -0.00006             0.00027
 21.0983            -0.00006             0.00011
 21.1609            -0.00006            -0.00007
 21.2236            -0.00006            -0.00024
 21.2862            -0.00006            -0.00039
 21.3488            -0.00006            -0.00051
 21.4114            -0.00006            -0.00061
 21.4740            -0.00006            -0.00067
 21.5366            -0.00006            -0.00070
 21.5992            -0.00006            -0.00069
 21.6618            -0.00006            -0.00064
 21.7244            -0.00006            -0.00055
 21.7870            -0.00006            -0.00042
 21.8496            -0.00005            -0.00028
 21.9122            -0.00005            -0.00013
 21.9748            -0.00005            -0.00000
 22.0374            -0.00004             0.00008
 22.1000            -0.00003             0.00010
 22.1626            -0.00002             0.00007
 22.2253            -0.00001            -0.00000
 22.2879             0.00001            -0.00008
 22.3505             0.00002            -0.00013
 22.4131             0.00003            -0.00014
 22.4757             0.00004            -0.00008
 22.5383             0.00005             0.00003
 22.6009             0.00005             0.00018
 22.6635             0.00006             0.00034
 22.7261             0.00006             0.00049
 22.7887             0.00006             0.00060
 22.8513             0.00006             0.00068
 22.9139             0.00006             0.00072
 22.9765             0.00006             0.00071
 23.0391             0.00006             0.00067
 23.1017             0.00006             0.00059
 23.1643             0.00006             0.00048
 23.2270             0.00005             0.00034
 23.2896             0.00005             0.00019
 23.3522             0.00005             0.00002
 23.4148             0.00005            -0.00014
 23.4774             0.00006            -0.00030
 23.5400             0.00007            -0.00043
 23.6026             0.00008            -0.00052
 23.6652             0.00009            -0.00057
 23.7278             0.00010            -0.00056
 23.7904             0.00011            -0.00049
 23.8530             0.00010            -0.00037
 23.9156             0.00010            -0.00024
 23.9782             0.00008            -0.00012
 24.0408             0.00007            -0.00004
 24.1034             0.00004            -0.00001
 24.1660             0.00002            -0.00003
 24.2287            -0.00001            -0.00007
 24.2913            -0.00003            -0.00010
 24.3539            -0.00005            -0.00009
 24.4165            -0.00008            -0.00001
 24.4791            -0.00009             0.00012
 24.5417            -0.00010             0.00027
 24.6043            -0.00011             0.00042
 24.6669            -0.00011             0.00054
 24.7295            -0.00011             0.00060
 24.7921            -0.00010             0.00060
 24.8547            -0.00009             0.00054
 24.9173            -0.00008             0.00044
 24.9799            -0.00007             0.00029
 25.0425            -0.00006             0.00013
 25.1051            -0.00006            -0.00005
 25.1678            -0.00006            -0.00021
 25.2304            -0.00006            -0.00037
 25.2930            -0.00006            -0.00049
 25.3556            -0.00006            -0.00059
 25.4182            -0.00006            -0.00066
 25.4808            -0.00006            -0.00069
 25.5434            -0.00006            -0.00068
 25.6060            -0.00006            -0.00063
 25.6686            -0.00006            -0.00055
 25.7312            -0.00006            -0.00044
 25.7938            -0.00006            -0.00029
 25.8564            -0.00005            -0.00015
 25.9190            -0.00005            -0.00002
 25.9816            -0.00004             0.00007
 26.0442            -0.00003             0.00010
 26.1068            -0.00002             0.00007
 26.1695            -0.00001             0.00000
 26.2321             0.00000            -0.00008
 26.2947             0.00002            -0.00014
 26.3573             0.00003            -0.00015
 26.4199             0.00004            -0.00010
 26.4825             0.00004             0.00001
 26.5451             0.00005             0.00015
 26.6077             0.00005             0.00031
 26.6703             0.00005             0.00046
 26.7329             0.00006             0.00059
 26.7955             0.00006             0.00068
 26.8581             0.00006             0.00072
 26.9207             0.00006             0.00072
 26.9833             0.00006             0.00068
 27.0459             0.00006             0.00060
 27.1085             0.00005             0.00049
 27.1712             0.00005             0.00035
 27.2338             0.00005             0.00020
 27.2964             0.00004             0.00004
 27.3590             0.00005            -0.00013
 27.4216             0.00005            -0.00029
 27.4842             0.00006            -0.00042
 27.5468             0.00008            -0.00053
 27.6094             0.00009            -0.00058
 27.6720             0.00010            -0.00057
 27.7346             0.00010            -0.00051
 27.7972             0.00010            -0.00039
 27.8598             0.00010            -0.00025
 27.9224             0.00009            -0.00012
 27.9850             0.00007            -0.00003
 28.0476             0.00005             0.00000
 28.1102             0.00003            -0.00002
 28.1729             0.00000            -0.00007
 28.2355            -0.00002            -0.00011
 28.2981            -0.00005            -0.00011
 28.3607            -0.00007            -0.00004
 28.4233            -0.00008             0.00008
 28.4859            -0.00010             0.00025
 28.5485            -0.00010             0.00041
 28.6111            -0.00011             0.00055
 28.6737            -0.00010             0.00063
 28.7363            -0.00009             0.00065
 28.7989            -0.00008             0.00060
 28.8615            -0.00007             0.00050
 28.9241            -0.00006             0.00035
 28.9867            -0.00006             0.00018
 29.0493            -0.00005             0.00000
 29.1120            -0.00005            -0.00017
 29.1746            -0.00005            -0.00033
 29.2372            -0.00005            -0.00047
 29.2998            -0.00005            -0.00058
 29.3624            -0.00005            -0.00066
 29.4250            -0.00005            -0.00070
 29.4876            -0.00005            -0.00070
 29.5502            -0.00005            -0.00066
 29.6128            -0.00005            -0.00058
 29.6754            -0.00005            -0.00047
 29.7380            -0.00005            -0.00033
 29.8006            -0.00004            -0.00017
 29.8632            -0.00004            -0.00003
 29.9258            -0.00003             0.00007
 29.9884            -0.00003             0.00012
 30.0510            -0.00002             0.00011
 30.1137            -0.00001             0.00005
 30.1763             0.00001            -0.00003
 30.2389             0.00002            -0.00010
 30.3015             0.00003            -0.00013
 30.3641             0.00004            -0.00010
 30.4267             0.00004            -0.00001
 30.4893             0.00005             0.00013
 30.5519             0.00005             0.00029
 30.6145             0.00005             0.00044
 30.6771             0.00005             0.00057
 30.7397             0.00005             0.00066
 30.8023             0.00006             0.00071
 30.8649             0.00006             0.00072
 30.9275             0.00006             0.00068
 30.9901             0.00006             0.00061
 31.0527             0.00006             0.00050
 31.1154             0.00005             0.00037
 31.1780             0.00005             0.00022
 31.2406             0.00005             0.00005
 31.3032             0.00005            -0.00012
 31.3658             0.00006            -0.00029
 31.4284             0.00007            -0.00043
 31.4910             0.00008            -0.00055
 31.5536             0.00009            -0.00061
 31.6162             0.00010            -0.00061
 31.6788             0.00011            -0.00055
 31.7414             0.00011            -0.00043
 31.8040             0.00010            -0.00028
 31.8666             0.00009            -0.00013
 31.9292             0.00008            -0.00001
 31.9918             0.00006             0.00005
 32.0544             0.00003             0.00005
 32.1171             0.00001             0.00001
 32.1797            -0.00002            -0.00004
 32.2423            -0.00004            -0.00006
 32.3049            -0.00006            -0.00002
 32.3675            -0.00008             0.00008
 32.4301            -0.00009             0.00023
 32.4927            -0.00010             0.00039
 32.5553            -0.00010             0.00053
 32.6179            -0.00010             0.00062
 32.6805            -0.00009             0.00064
 32.7431            -0.00008             0.00060
 32.8057            -0.00007             0.00051
 32.8683            -0.00006             0.00037
 32.9309            -0.00005             0.00020
 32.9935            -0.00005             0.00002
 33.0562            -0.00005            -0.00016
 33.1188            -0.00005            -0.00032
 33.1814            -0.00005            -0.00046
 33.2440            -0.00006            -0.00058
 33.3066            -0.00006            -0.00066
 33.3692            -0.00006            -0.00071
 33.4318            -0.00006            -0.00072
 33.4944            -0.00006            -0.00069
 33.5570            -0.00006            -0.00061
 33.6196            -0.00005            -0.00050
 33.6822            -0.00005            -0.00035
 33.7448            -0.00005            -0.00019
 33.8074            -0.00005            -0.00005
 33.8700            -0.00004             0.00006
 33.9326            -0.00004             0.00012
 33.9952            -0.00003             0.00011
 34.0579            -0.00001             0.00005
 34.1205            -0.00000            -0.00003
 34.1831             0.00001            -0.00011
 34.2457             0.00002            -0.00014
 34.3083             0.00003            -0.00011
 34.3709             0.00004            -0.00003
 34.4335             0.00005             0.00010
 34.4961             0.00005             0.00026
 34.5587             0.00006             0.00041
 34.6213             0.00006             0.00054
 34.6839             0.00006             0.00064
 34.7465             0.00006             0.00070
 34.8091             0.00006             0.00071
 34.8717             0.00006             0.00069
 34.9343             0.00006             0.00062
 34.9969             0.00006             0.00053
 35.0596             0.00006             0.00040
 35.1222             0.00006             0.00025
 35.1848             0.00006             0.00009
 35.2474             0.00006            -0.00008
 35.3100             0.00006            -0.00024
 35.3726             0.00007            -0.00039
 35.4352             0.00008            -0.00050
 35.4978             0.00010            -0.00057
 35.5604             0.00011            -0.00058
 35.6230             0.00011            -0.00053
 35.6856             0.00011            -0.00042
 35.7482             0.00011            -0.00028
 35.8108             0.00010            -0.00014
 35.8734             0.00009            -0.00002
 35.9360             0.00007             0.00005
 35.9986             0.00004             0.00005
 36.0613             0.00002             0.00001
 36.1239            -0.00001            -0.00004
 36.1865            -0.00003            -0.00006
 36.2491            -0.00006            -0.00004
 36.3117            -0.00008             0.00006
 36.3743            -0.00009             0.00020
 36.4369            -0.00010             0.00036
 36.4995            -0.00010             0.00050
 36.5621            -0.00010             0.00060
 36.6247            -0.00010             0.00063
 36.6873            -0.00009             0.00060
 36.7499            -0.00008             0.00051
 36.8125            -0.00007             0.00037
 36.8751            -0.00006             0.00021
 36.9377            -0.00005             0.00003
 37.0004            -0.00005            -0.00015
 37.0630            -0.00006            -0.00031
 37.1256            -0.00006            -0.00045
 37.1882            -0.00006            -0.00057
 37.2508            -0.00006            -0.00067
 37.3134            -0.00006            -0.00072
 37.3760            -0.00006            -0.00074
 37.4386            -0.00006            -0.00071
 37.5012            -0.00006            -0.00063
 37.5638            -0.00006            -0.00052
 37.6264            -0.00006            -0.00037
 37.6890            -0.00006            -0.00021
 37.7516            -0.00005            -0.00006
 37.8142            -0.00005             0.00005
 37.8768            -0.00004             0.00011
 37.9394            -0.00003             0.00011
 38.0021            -0.00002             0.00006
 38.0647            -0.00001            -0.00002
 38.1273             0.00001            -0.00010
 38.1899             0.00002            -0.00013
 38.2525             0.00003            -0.00011
 38.3151             0.00004            -0.00003
 38.3777             0.00005             0.00010
 38.4403             0.00005             0.00025
 38.5029             0.00005             0.00040
 38.5655             0.00006             0.00053
 38.6281             0.00006             0.00062
 38.6907             0.00006             0.00068
 38.7533             0.00006             0.00070
 38.8159             0.00007             0.00068
 38.8785             0.00007             0.00063
 38.9411             0.00007             0.00054
 39.0038             0.00007             0.00042
 39.0664             0.00007             0.00027
 39.1290             0.00007             0.00011
 39.1916             0.00007            -0.00006
 39.2542             0.00008            -0.00022
 39.3168             0.00009            -0.00037
 39.3794             0.00010            -0.00048
 39.4420             0.00011            -0.00056
 39.5046             0.00012            -0.00058
 39.5672             0.00012            -0.00054
 39.6298             0.00012            -0.00044
 39.6924             0.00012            -0.00030
 39.7550             0.00011            -0.00015
 39.8176             0.00009            -0.00001
 39.8802             0.00007             0.00008
 39.9428             0.00005             0.00012
 40.0055             0.00002             0.00010
 40.0681            -0.00001             0.00005
 40.1307            -0.00003             0.00002
 40.1933            -0.00006             0.00002
 40.2559            -0.00008             0.00008
 40.3185            -0.00009             0.00019
 40.3811            -0.00011             0.00032
 40.4437            -0.00011             0.00045
 40.5063            -0.00011             0.00054
 40.5689            -0.00011             0.00058
 40.6315            -0.00010             0.00055
 40.6941            -0.00008             0.00047
 40.7567            -0.00007             0.00034
 40.8193            -0.00006             0.00018
 40.8819            -0.00006             0.00001
 40.9446            -0.00005            -0.00016
 41.0072            -0.00006            -0.00032
 41.0698            -0.00006            -0.00047
 41.1324            -0.00006            -0.00059
 41.1950            -0.00007            -0.00069
 41.2576            -0.00007            -0.00075
 41.3202            -0.00007            -0.00078
 41.3828            -0.00007            -0.00075
 41.4454            -0.00006            -0.00068
 41.5080            -0.00006            -0.00055
 41.5706            -0.00006            -0.00039
 41.6332            -0.00006            -0.00021
 41.6958            -0.00006            -0.00004
 41.7584            -0.00005             0.00009
 41.8210            -0.00005             0.00016
 41.8836            -0.00004             0.00018
 41.9463            -0.00002             0.00013
 42.0089            -0.00001             0.00005
 42.0715             0.00000            -0.00003
 42.1341             0.00001            -0.00008
 42.1967             0.00002            -0.00007
 42.2593             0.00003            -0.00001
 42.3219             0.00004             0.00010
 42.3845             0.00004             0.00024
 42.4471             0.00005             0.00037
 42.5097             0.00005             0.00049
 42.5723             0.00005             0.00057
 42.6349             0.00006             0.00062
 42.6975             0.00006             0.00064
 42.7601             0.00006             0.00063
 42.8227             0.00006             0.00059
 42.8853             0.00006             0.00051
 42.9480             0.00006             0.00040
 43.0106             0.00007             0.00026
 43.0732             0.00007             0.00009
 43.1358             0.00008            -0.00008
 43.1984             0.00009            -0.00024
 43.2610             0.00010            -0.00039
 43.3236             0.00011            -0.00051
 43.3862             0.00012            -0.00059
 43.4488             0.00013            -0.00061
 43.5114             0.00013            -0.00058
 43.5740             0.00013            -0.00048
 43.6366             0.00013            -0.00034
 43.6992             0.00012            -0.00017
 43.7618             0.00010             0.00000
 43.8244             0.00008             0.00014
 43.8870             0.00006             0.00023
 43.9497             0.00003             0.00025
 44.0123             0.00000             0.00024
 44.0749            -0.00003             0.00021
 44.1375            -0.00005             0.00019
 44.2001            -0.00008             0.00022
 44.2627            -0.00010             0.00028
 44.3253            -0.00011             0.00037
 44.3879            -0.00012             0.00046
 44.4505            -0.00012             0.00052
 44.5131            -0.00012             0.00053
 44.5757            -0.00011             0.00049
 44.6383            -0.00009             0.00040
 44.7009            -0.00008             0.00027
 44.7635            -0.00007             0.00011
 44.8261            -0.00006            -0.00006
 44.8888            -0.00005            -0.00023
 44.9514            -0.00005            -0.00039
 45.0140            -0.00005            -0.00054
 45.0766            -0.00006            -0.00067
 45.1392            -0.00006            -0.00078
 45.2018            -0.00007            -0.00085
 45.2644            -0.00007            -0.00088
 45.3270            -0.00008            -0.00086
 45.3896            -0.00008            -0.00079
 45.4522            -0.00009            -0.00065
 45.5148            -0.00009            -0.00048
 45.5774            -0.00009            -0.00027
 45.6400            -0.00010            -0.00007
 45.7026            -0.00010             0.00012
 45.7652            -0.00009             0.00025
 45.8278            -0.00009             0.00032
 45.8905            -0.00008             0.00032
 45.9531            -0.00007             0.00026
 46.0157            -0.00006             0.00017
 46.0783            -0.00004             0.00008
 46.1409            -0.00003             0.00002
 46.2035            -0.00002             0.00001
 46.2661            -0.00000             0.00006
 46.3287             0.00001             0.00014
 46.3913             0.00003             0.00023
 46.4539             0.00004             0.00032
 46.5165             0.00005             0.00038
 46.5791             0.00006             0.00041
 46.6417             0.00008             0.00043
 46.7043             0.00009             0.00042
 46.7669             0.00010             0.00038
 46.8295             0.00012             0.00032
 46.8922             0.00013             0.00023
 46.9548             0.00013             0.00012
 47.0174             0.00014             0.00000
 47.0800             0.00014            -0.00012
 47.1426             0.00014            -0.00023
 47.2052             0.00014            -0.00032
 47.2678             0.00015            -0.00039
 47.3304             0.00017            -0.00042
 47.3930             0.00020            -0.00042
 47.4556             0.00024            -0.00037
 47.5182             0.00028            -0.00025
 47.5808             0.00032            -0.00007
 47.6434             0.00038             0.00015
 47.7060             0.00043             0.00038
 47.7686             0.00049             0.00058
 47.8312             0.00055             0.00068
 47.8939             0.00061             0.00066
 47.9565             0.00068             0.00054
 48.0191             0.00074             0.00036
 48.0817             0.00080             0.00020
 48.1443             0.00087             0.00013
 48.2069             0.00093             0.00019
 48.2695             0.00100             0.00039
 48.3321             0.00106             0.00069
 48.3947             0.00112             0.00103
 48.4573             0.00118             0.00138
 48.5199             0.00123             0.00169
 48.5825             0.00127             0.00194
 48.6451             0.00130             0.00213
 48.7077             0.00133             0.00227
 48.7703             0.00134             0.00235
 48.8330             0.00135             0.00238
 48.8956             0.00135             0.00236
 48.9582             0.00135             0.00231
 49.0208             0.00135             0.00224
 49.0834             0.00135             0.00214
 49.1460             0.00136             0.00203
 49.2086             0.00137             0.00192
 49.2712             0.00137             0.00179
 49.3338             0.00137             0.00166
 49.3964             0.00135             0.00154
 49.4590             0.00133             0.00141
 49.5216             0.00129             0.00129
 49.5842             0.00125             0.00117
 49.6468             0.00119             0.00106
 49.7094             0.00113             0.00096
 49.7720             0.00106             0.00086
 49.8347             0.00100             0.00077
 49.8973             0.00093             0.00069
 49.9599             0.00086             0.00061
 50.0225             0.00079             0.00054
 50.0851             0.00072             0.00048
 50.1477             0.00066             0.00042
 50.2103             0.00059             0.00037
 50.2729             0.00054             0.00033
 50.3355             0.00048             0.00029
 50.3981             0.00043             0.00025
 50.4607             0.00039             0.00021
 50.5233             0.00034             0.00018
 50.5859             0.00030             0.00016
 50.6485             0.00027             0.00013
 50.7111             0.00023             0.00011
 50.7737             0.00020             0.00010
 50.8364             0.00018             0.00008
 50.8990             0.00015             0.00007
 50.9616             0.00013             0.00005
 51.0242             0.00011             0.00004
 51.0868             0.00010             0.00003
 51.1494             0.00008             0.00002
 51.2120             0.00007             0.00002
 51.2746             0.00005             0.00001
 51.3372             0.00004             0.00000
 51.3998             0.00003            -0.00000
 51.4624             0.00003            -0.00001
 51.5250             0.00002            -0.00001
 51.5876             0.00001            -0.00001
 51.6502             0.00001            -0.00002
 51.7128             0.00000            -0.00002
 51.7754            -0.00000            -0.00002
 51.8381            -0.00001            -0.00002
 51.9007            -0.00001            -0.00002
 51.9633            -0.00001            -0.00003
 52.0259            -0.00002            -0.00003
 52.0885            -0.00002            -0.00003
 52.1511            -0.00002            -0.00003
 52.2137            -0.00002            -0.00003
 52.2763            -0.00002            -0.00003
 52.3389            -0.00003            -0.00003
 52.4015            -0.00003            -0.00003
 52.4641            -0.00003            -0.00003
 52.5267            -0.00003            -0.00003
 52.5893            -0.00003            -0.00003
 52.6519            -0.00003            -0.00003
 52.7145            -0.00003            -0.00003
 52.7772            -0.00003            -0.00003
 52.8398            -0.00003            -0.00003
 52.9024            -0.00003            -0.00003
 52.9650            -0.00003            -0.00003
 53.0276            -0.00003            -0.00003
 53.0902            -0.00003            -0.00003
 53.1528            -0.00003            -0.00003
 53.2154            -0.00003            -0.00003
 53.2780            -0.00003            -0.00003
 53.3406            -0.00003            -0.00003
 53.4032            -0.00003            -0.00003
 53.4658            -0.00003            -0.00003
 53.5284            -0.00003            -0.00003
 53.5910            -0.00003            -0.00003
 53.6536            -0.00003            -0.00003
 53.7162            -0.00003            -0.00003
 53.7789            -0.00003            -0.00003
 53.8415            -0.00003            -0.00003
 53.9041            -0.00003            -0.00003
 53.9667            -0.00003            -0.00003
 54.0293            -0.00003            -0.00003
 54.0919            -0.00003            -0.00003
 54.1545            -0.00003            -0.00003
 54.2171            -0.00003            -0.00003
 54.2797            -0.00003            -0.00003
 54.3423            -0.00003            -0.00003
 54.4049            -0.00003            -0.00003
 54.4675            -0.00003            -0.00003
 54.5301            -0.00003            -0.00003
 54.5927            -0.00003            -0.00003
 54.6553            -0.00003            -0.00003
 54.7179            -0.00003            -0.00003
 54.7806            -0.00003            -0.00003
 54.8432            -0.00003            -0.00003
 54.9058            -0.00002            -0.00003
 54.9684            -0.00002            -0.00003
 55.0310            -0.00002            -0.00003
 55.0936            -0.00002            -0.00002
 55.1562            -0.00002            -0.00002
 55.2188            -0.00002            -0.00002
 55.2814            -0.00002            -0.00002
 55.3440            -0.00002            -0.00002
 55.4066            -0.00002            -0.00002
 55.4692            -0.00002            -0.00002
 55.5318            -0.00002            -0.00002
 55.5944            -0.00002            -0.00002
 55.6570            -0.00002            -0.00002
 55.7196            -0.00002            -0.00002
 55.7823            -0.00002            -0.00002
 55.8449            -0.00002            -0.00002
 55.9075            -0.00002            -0.00002
 55.9701            -0.00002            -0.00002
 56.0327            -0.00002            -0.00002
 56.0953            -0.00001            -0.00002
 56.1579            -0.00001            -0.00001
 56.2205            -0.00001            -0.00001
 56.2831            -0.00001            -0.00001
